tasks.thisRepN,tasks.thisTrialN,tasks.thisN,tasks.thisIndex,trials.thisRepN,trials.thisTrialN,trials.thisN,trials.thisIndex,instrText.started,instrText.stopped,corrAns,colorName,trialCircle.started,trialCircle.stopped,trialResp.keys,trialResp.corr,trialResp.started,trialResp.stopped,trialText.started,trialText.stopped,trialCount.started,trialCount.stopped,endText.started,endText.stopped,participant,session,date,expName,psychopyVersion,frameRate,
0,0,0,0,0,0,0,0,15.786349900008645,None,,orange,17.433088200050406,18.194172500050627,None,0,17.433088200050406,None,17.433088200050406,18.194172500050627,17.433088200050406,None,,,a,001,2020_Jul_30_2032,goNogoAlpha4,2020.1.3,60.07604425537386,
0,0,0,0,1,0,1,0,,,space,blue,18.424697900016326,19.177265300008003,None,0,18.424697900016326,None,18.424697900016326,19.177265300008003,18.424697900016326,None,,,a,001,2020_Jul_30_2032,goNogoAlpha4,2020.1.3,60.07604425537386,
0,0,0,0,2,0,2,0,,,,orange,19.42347710003378,20.176952500012703,None,0,19.42347710003378,None,19.42347710003378,20.176952500012703,19.42347710003378,None,,,a,001,2020_Jul_30_2032,goNogoAlpha4,2020.1.3,60.07604425537386,
0,0,0,0,3,0,3,0,,,space,blue,20.425091600045562,21.17651650001062,None,0,20.425091600045562,None,20.425091600045562,21.17651650001062,20.425091600045562,None,,,a,001,2020_Jul_30_2032,goNogoAlpha4,2020.1.3,60.07604425537386,
0,0,0,0,4,0,4,0,,,space,blue,21.42099470004905,22.176375600043684,None,0,21.42099470004905,None,21.42099470004905,22.176375600043684,21.42099470004905,None,,,a,001,2020_Jul_30_2032,goNogoAlpha4,2020.1.3,60.07604425537386,
0,0,0,0,5,0,5,0,,,space,blue,22.420562600018457,23.176132900000084,None,0,22.420562600018457,None,22.420562600018457,23.176132900000084,22.420562600018457,None,,,a,001,2020_Jul_30_2032,goNogoAlpha4,2020.1.3,60.07604425537386,
0,0,0,0,6,0,6,0,,,space,blue,23.419308400014415,24.17593610001495,None,0,23.419308400014415,None,23.419308400014415,24.17593610001495,23.419308400014415,None,,,a,001,2020_Jul_30_2032,goNogoAlpha4,2020.1.3,60.07604425537386,
0,0,0,0,7,0,7,0,,,space,blue,24.41927559999749,25.175675000005867,None,0,24.41927559999749,None,24.41927559999749,25.175675000005867,24.41927559999749,None,,,a,001,2020_Jul_30_2032,goNogoAlpha4,2020.1.3,60.07604425537386,
0,0,0,0,8,0,8,0,,,space,blue,25.420237000042107,26.175291499996092,None,0,25.420237000042107,None,25.420237000042107,26.175291499996092,25.420237000042107,None,,,a,001,2020_Jul_30_2032,goNogoAlpha4,2020.1.3,60.07604425537386,
0,0,0,0,9,0,9,0,,,space,blue,26.415556300024036,27.175545800011605,None,0,26.415556300024036,None,26.415556300024036,27.175545800011605,26.415556300024036,None,,,a,001,2020_Jul_30_2032,goNogoAlpha4,2020.1.3,60.07604425537386,
0,0,0,0,10,0,10,0,,,space,blue,27.419307900010608,28.175132300006226,None,0,27.419307900010608,None,27.419307900010608,28.175132300006226,27.419307900010608,None,,,a,001,2020_Jul_30_2032,goNogoAlpha4,2020.1.3,60.07604425537386,
0,0,0,0,11,0,11,0,,,,orange,28.424811300006695,29.17483680002624,None,0,28.424811300006695,None,28.424811300006695,29.17483680002624,28.424811300006695,None,,,a,001,2020_Jul_30_2032,goNogoAlpha4,2020.1.3,60.07604425537386,
0,0,0,0,12,0,12,0,,,space,blue,29.415746800019406,30.174592500028666,None,0,29.415746800019406,None,29.415746800019406,30.174592500028666,29.415746800019406,None,,,a,001,2020_Jul_30_2032,goNogoAlpha4,2020.1.3,60.07604425537386,
0,0,0,0,13,0,13,0,,,space,blue,30.41579640004784,31.1743562000338,None,0,30.41579640004784,None,30.41579640004784,31.1743562000338,30.41579640004784,None,,,a,001,2020_Jul_30_2032,goNogoAlpha4,2020.1.3,60.07604425537386,
0,0,0,0,14,0,14,0,,,space,blue,31.41548700002022,32.17424480000045,None,0,31.41548700002022,None,31.41548700002022,32.17424480000045,31.41548700002022,None,,,a,001,2020_Jul_30_2032,goNogoAlpha4,2020.1.3,60.07604425537386,
0,0,0,0,15,0,15,0,,,space,blue,32.415984700026456,33.173632799996994,None,0,32.415984700026456,None,32.415984700026456,33.173632799996994,32.415984700026456,None,,,a,001,2020_Jul_30_2032,goNogoAlpha4,2020.1.3,60.07604425537386,
0,0,0,0,16,0,16,0,,,,orange,33.418103600037284,34.17369330005022,None,0,33.418103600037284,None,33.418103600037284,34.17369330005022,33.418103600037284,None,,,a,001,2020_Jul_30_2032,goNogoAlpha4,2020.1.3,60.07604425537386,
0,0,0,0,17,0,17,0,,,,orange,34.415695600037,35.1732152000186,None,0,34.415695600037,None,34.415695600037,35.1732152000186,34.415695600037,None,,,a,001,2020_Jul_30_2032,goNogoAlpha4,2020.1.3,60.07604425537386,
0,0,0,0,18,0,18,0,,,space,blue,35.41694060002919,36.17349519999698,None,0,35.41694060002919,None,35.41694060002919,36.17349519999698,35.41694060002919,None,,,a,001,2020_Jul_30_2032,goNogoAlpha4,2020.1.3,60.07604425537386,
0,0,0,0,19,0,19,0,,,space,blue,36.41405840002699,37.17273109999951,None,0,36.41405840002699,None,36.41405840002699,37.17273109999951,36.41405840002699,None,,,a,001,2020_Jul_30_2032,goNogoAlpha4,2020.1.3,60.07604425537386,
0,0,0,0,20,0,20,0,,,,orange,37.419427300046664,38.17254739999771,None,0,37.419427300046664,None,37.419427300046664,38.17254739999771,37.419427300046664,None,,,a,001,2020_Jul_30_2032,goNogoAlpha4,2020.1.3,60.07604425537386,
0,0,0,0,21,0,21,0,,,space,blue,38.41719460004242,39.17236770002637,None,0,38.41719460004242,None,38.41719460004242,39.17236770002637,38.41719460004242,None,,,a,001,2020_Jul_30_2032,goNogoAlpha4,2020.1.3,60.07604425537386,
0,0,0,0,22,0,22,0,,,space,blue,39.41317400004482,40.1720098000369,None,0,39.41317400004482,None,39.41317400004482,40.1720098000369,39.41317400004482,None,,,a,001,2020_Jul_30_2032,goNogoAlpha4,2020.1.3,60.07604425537386,
0,0,0,0,23,0,23,0,,,space,blue,40.41304750001291,41.17163340002298,None,0,40.41304750001291,None,40.41304750001291,41.17163340002298,40.41304750001291,None,,,a,001,2020_Jul_30_2032,goNogoAlpha4,2020.1.3,60.07604425537386,
0,0,0,0,24,0,24,0,,,space,blue,41.409122200042475,42.17182089999551,None,0,41.409122200042475,None,41.409122200042475,42.17182089999551,41.409122200042475,None,,,a,001,2020_Jul_30_2032,goNogoAlpha4,2020.1.3,60.07604425537386,
0,0,0,0,25,0,25,0,,,space,blue,42.41277270001592,43.17132480000146,None,0,42.41277270001592,None,42.41277270001592,43.17132480000146,42.41277270001592,None,,,a,001,2020_Jul_30_2032,goNogoAlpha4,2020.1.3,60.07604425537386,
0,0,0,0,26,0,26,0,,,space,blue,43.408491700014565,44.1710696000373,None,0,43.408491700014565,None,43.408491700014565,44.1710696000373,43.408491700014565,None,,,a,001,2020_Jul_30_2032,goNogoAlpha4,2020.1.3,60.07604425537386,
0,0,0,0,27,0,27,0,,,space,blue,44.41243680001935,45.17079580004793,None,0,44.41243680001935,None,44.41243680001935,45.17079580004793,44.41243680001935,None,,,a,001,2020_Jul_30_2032,goNogoAlpha4,2020.1.3,60.07604425537386,
0,0,0,0,28,0,28,0,,,space,blue,45.4085770000238,46.170540800027084,None,0,45.4085770000238,None,45.4085770000238,46.170540800027084,45.4085770000238,None,,,a,001,2020_Jul_30_2032,goNogoAlpha4,2020.1.3,60.07604425537386,
0,0,0,0,29,0,29,0,,,space,blue,46.4089907000307,47.17010310001206,None,0,46.4089907000307,None,46.4089907000307,47.17010310001206,46.4089907000307,None,,,a,001,2020_Jul_30_2032,goNogoAlpha4,2020.1.3,60.07604425537386,
0,0,0,0,30,0,30,0,,,space,blue,47.41277550003724,48.17016040004091,None,0,47.41277550003724,None,47.41277550003724,48.17016040004091,47.41277550003724,None,,,a,001,2020_Jul_30_2032,goNogoAlpha4,2020.1.3,60.07604425537386,
0,0,0,0,31,0,31,0,,,space,blue,48.412864100013394,49.17009530001087,None,0,48.412864100013394,None,48.412864100013394,49.17009530001087,48.412864100013394,None,,,a,001,2020_Jul_30_2032,goNogoAlpha4,2020.1.3,60.07604425537386,
0,0,0,0,32,0,32,0,,,space,blue,49.406745800049976,50.16941210004734,None,0,49.406745800049976,None,49.406745800049976,50.16941210004734,49.406745800049976,None,,,a,001,2020_Jul_30_2032,goNogoAlpha4,2020.1.3,60.07604425537386,
0,0,0,0,33,0,33,0,,,space,blue,50.41067950002616,51.16912610002328,None,0,50.41067950002616,None,50.41067950002616,51.16912610002328,50.41067950002616,None,,,a,001,2020_Jul_30_2032,goNogoAlpha4,2020.1.3,60.07604425537386,
0,0,0,0,34,0,34,0,,,space,blue,51.41141180001432,52.16891550004948,None,0,51.41141180001432,None,51.41141180001432,52.16891550004948,51.41141180001432,None,,,a,001,2020_Jul_30_2032,goNogoAlpha4,2020.1.3,60.07604425537386,
0,0,0,0,35,0,35,0,,,,orange,52.414468900009524,53.16871470003389,None,0,52.414468900009524,None,52.414468900009524,53.16871470003389,52.414468900009524,None,,,a,001,2020_Jul_30_2032,goNogoAlpha4,2020.1.3,60.07604425537386,
0,0,0,0,36,0,36,0,,,space,blue,53.41346579999663,54.16843970003538,None,0,53.41346579999663,None,53.41346579999663,54.16843970003538,53.41346579999663,None,,,a,001,2020_Jul_30_2032,goNogoAlpha4,2020.1.3,60.07604425537386,
0,0,0,0,37,0,37,0,,,,orange,54.41407670004992,55.168545500026084,None,0,54.41407670004992,None,54.41407670004992,55.168545500026084,54.41407670004992,None,,,a,001,2020_Jul_30_2032,goNogoAlpha4,2020.1.3,60.07604425537386,
0,0,0,0,38,0,38,0,,,,orange,55.40819390001707,56.167956400022376,None,0,55.40819390001707,None,55.40819390001707,56.167956400022376,55.40819390001707,None,,,a,001,2020_Jul_30_2032,goNogoAlpha4,2020.1.3,60.07604425537386,
0,0,0,0,39,0,39,0,,,,orange,56.410249800013844,57.16768490005052,None,0,56.410249800013844,None,56.410249800013844,57.16768490005052,56.410249800013844,None,,,a,001,2020_Jul_30_2032,goNogoAlpha4,2020.1.3,60.07604425537386,
0,0,0,0,40,0,40,0,,,space,blue,57.412528400018346,58.16736970003694,None,0,57.412528400018346,None,57.412528400018346,58.16736970003694,57.412528400018346,None,,,a,001,2020_Jul_30_2032,goNogoAlpha4,2020.1.3,60.07604425537386,
0,0,0,0,41,0,41,0,,,,orange,58.40967070002807,59.16745490004541,None,0,58.40967070002807,None,58.40967070002807,59.16745490004541,58.40967070002807,None,,,a,001,2020_Jul_30_2032,goNogoAlpha4,2020.1.3,60.07604425537386,
0,0,0,0,42,0,42,0,,,space,blue,59.412033100030385,60.166990700003225,None,0,59.412033100030385,None,59.412033100030385,60.166990700003225,59.412033100030385,None,,,a,001,2020_Jul_30_2032,goNogoAlpha4,2020.1.3,60.07604425537386,
0,0,0,0,43,0,43,0,,,space,blue,60.40909260004992,61.16665710002417,None,0,60.40909260004992,None,60.40909260004992,61.16665710002417,60.40909260004992,None,,,a,001,2020_Jul_30_2032,goNogoAlpha4,2020.1.3,60.07604425537386,
0,0,0,0,44,0,44,0,,,space,blue,61.407828900031745,62.16631960001541,None,0,61.407828900031745,None,61.407828900031745,62.16631960001541,61.407828900031745,None,,,a,001,2020_Jul_30_2032,goNogoAlpha4,2020.1.3,60.07604425537386,
0,0,0,0,45,0,45,0,,,space,blue,62.40640249999706,63.16640330001246,None,0,62.40640249999706,None,62.40640249999706,63.16640330001246,62.40640249999706,None,,,a,001,2020_Jul_30_2032,goNogoAlpha4,2020.1.3,60.07604425537386,
0,0,0,0,46,0,46,0,,,space,blue,63.40336950001074,64.16656300000614,None,0,63.40336950001074,None,63.40336950001074,64.16656300000614,63.40336950001074,None,,,a,001,2020_Jul_30_2032,goNogoAlpha4,2020.1.3,60.07604425537386,
0,0,0,0,47,0,47,0,,,space,blue,64.40578600001754,65.16563420003513,None,0,64.40578600001754,None,64.40578600001754,65.16563420003513,64.40578600001754,None,,,a,001,2020_Jul_30_2032,goNogoAlpha4,2020.1.3,60.07604425537386,
0,0,0,0,48,0,48,0,,,space,blue,65.42464460001793,66.18244180001784,None,0,65.42464460001793,None,65.42464460001793,66.18244180001784,65.42464460001793,None,,,a,001,2020_Jul_30_2032,goNogoAlpha4,2020.1.3,60.07604425537386,
0,0,0,0,49,0,49,0,,,space,blue,66.42307930003153,67.18183420004789,None,0,66.42307930003153,None,66.42307930003153,67.18183420004789,66.42307930003153,None,,,a,001,2020_Jul_30_2032,goNogoAlpha4,2020.1.3,60.07604425537386,
0,0,0,0,50,0,50,0,,,space,blue,67.42300490004709,68.18160680000437,None,0,67.42300490004709,None,67.42300490004709,68.18160680000437,67.42300490004709,None,,,a,001,2020_Jul_30_2032,goNogoAlpha4,2020.1.3,60.07604425537386,
0,0,0,0,51,0,51,0,,,space,blue,68.42360550002195,69.18157150002662,None,0,68.42360550002195,None,68.42360550002195,69.18157150002662,68.42360550002195,None,,,a,001,2020_Jul_30_2032,goNogoAlpha4,2020.1.3,60.07604425537386,
0,0,0,0,52,0,52,0,,,space,blue,69.42044529999839,70.18109440000262,None,0,69.42044529999839,None,69.42044529999839,70.18109440000262,69.42044529999839,None,,,a,001,2020_Jul_30_2032,goNogoAlpha4,2020.1.3,60.07604425537386,
0,0,0,0,53,0,53,0,,,space,blue,70.41919780004537,71.1809043000103,None,0,70.41919780004537,None,70.41919780004537,71.1809043000103,70.41919780004537,None,,,a,001,2020_Jul_30_2032,goNogoAlpha4,2020.1.3,60.07604425537386,
0,0,0,0,54,0,54,0,,,space,blue,71.41945780004608,72.18047530000331,None,0,71.41945780004608,None,71.41945780004608,72.18047530000331,71.41945780004608,None,,,a,001,2020_Jul_30_2032,goNogoAlpha4,2020.1.3,60.07604425537386,
0,0,0,0,55,0,55,0,,,space,blue,72.42841730004875,73.180331200012,None,0,72.42841730004875,None,72.42841730004875,73.180331200012,72.42841730004875,None,,,a,001,2020_Jul_30_2032,goNogoAlpha4,2020.1.3,60.07604425537386,
0,0,0,0,56,0,56,0,,,,orange,73.42742920003366,74.18023940001149,None,0,73.42742920003366,None,73.42742920003366,74.18023940001149,73.42742920003366,None,,,a,001,2020_Jul_30_2032,goNogoAlpha4,2020.1.3,60.07604425537386,
0,0,0,0,57,0,57,0,,,space,blue,74.42446670000209,75.17980460001854,None,0,74.42446670000209,None,74.42446670000209,75.17980460001854,74.42446670000209,None,,,a,001,2020_Jul_30_2032,goNogoAlpha4,2020.1.3,60.07604425537386,
0,0,0,0,58,0,58,0,,,space,blue,75.42094820004422,76.17962380003883,None,0,75.42094820004422,None,75.42094820004422,76.17962380003883,75.42094820004422,None,,,a,001,2020_Jul_30_2032,goNogoAlpha4,2020.1.3,60.07604425537386,
0,0,0,0,59,0,59,0,,,space,blue,76.4169336000341,77.17932809999911,None,0,76.4169336000341,None,76.4169336000341,77.17932809999911,76.4169336000341,None,,,a,001,2020_Jul_30_2032,goNogoAlpha4,2020.1.3,60.07604425537386,
0,0,0,0,60,0,60,0,,,space,blue,77.41641220002202,78.17917120002676,None,0,77.41641220002202,None,77.41641220002202,78.17917120002676,77.41641220002202,None,,,a,001,2020_Jul_30_2032,goNogoAlpha4,2020.1.3,60.07604425537386,
0,0,0,0,61,0,61,0,,,space,blue,78.42014060000656,79.17890040000202,None,0,78.42014060000656,None,78.42014060000656,79.17890040000202,78.42014060000656,None,,,a,001,2020_Jul_30_2032,goNogoAlpha4,2020.1.3,60.07604425537386,
0,0,0,0,62,0,62,0,,,space,blue,79.4223767000367,80.17859900003532,None,0,79.4223767000367,None,79.4223767000367,80.17859900003532,79.4223767000367,None,,,a,001,2020_Jul_30_2032,goNogoAlpha4,2020.1.3,60.07604425537386,
0,0,0,0,63,0,63,0,,,space,blue,80.42094710003585,81.17969310004264,None,0,80.42094710003585,None,80.42094710003585,81.17969310004264,80.42094710003585,None,,,a,001,2020_Jul_30_2032,goNogoAlpha4,2020.1.3,60.07604425537386,
0,0,0,0,64,0,64,0,,,space,blue,81.41660120000597,82.17810730001656,None,0,81.41660120000597,None,81.41660120000597,82.17810730001656,81.41660120000597,None,,,a,001,2020_Jul_30_2032,goNogoAlpha4,2020.1.3,60.07604425537386,
0,0,0,0,65,0,65,0,,,space,blue,82.42122050002217,83.17813320003916,None,0,82.42122050002217,None,82.42122050002217,83.17813320003916,82.42122050002217,None,,,a,001,2020_Jul_30_2032,goNogoAlpha4,2020.1.3,60.07604425537386,
0,0,0,0,66,0,66,0,,,,orange,83.42218870000215,84.17748569999821,None,0,83.42218870000215,None,83.42218870000215,84.17748569999821,83.42218870000215,None,,,a,001,2020_Jul_30_2032,goNogoAlpha4,2020.1.3,60.07604425537386,
0,0,0,0,67,0,67,0,,,space,blue,84.42367059999378,85.17722460004734,None,0,84.42367059999378,None,84.42367059999378,85.17722460004734,84.42367059999378,None,,,a,001,2020_Jul_30_2032,goNogoAlpha4,2020.1.3,60.07604425537386,
0,0,0,0,68,0,68,0,,,,orange,85.41940020001493,86.17702730000019,None,0,85.41940020001493,None,85.41940020001493,86.17702730000019,85.41940020001493,None,,,a,001,2020_Jul_30_2032,goNogoAlpha4,2020.1.3,60.07604425537386,
0,0,0,0,69,0,69,0,,,space,blue,86.4216631000163,87.17670120002003,None,0,86.4216631000163,None,86.4216631000163,87.17670120002003,86.4216631000163,None,,,a,001,2020_Jul_30_2032,goNogoAlpha4,2020.1.3,60.07604425537386,
0,0,0,0,70,0,70,0,,,space,blue,87.41602500004228,88.17662370001199,None,0,87.41602500004228,None,87.41602500004228,88.17662370001199,87.41602500004228,None,,,a,001,2020_Jul_30_2032,goNogoAlpha4,2020.1.3,60.07604425537386,
0,0,0,0,71,0,71,0,,,space,blue,88.41762389999349,89.17626920004841,None,0,88.41762389999349,None,88.41762389999349,89.17626920004841,88.41762389999349,None,,,a,001,2020_Jul_30_2032,goNogoAlpha4,2020.1.3,60.07604425537386,
0,0,0,0,72,0,72,0,,,space,blue,89.41839140001684,90.17682920000516,None,0,89.41839140001684,None,89.41839140001684,90.17682920000516,89.41839140001684,None,,,a,001,2020_Jul_30_2032,goNogoAlpha4,2020.1.3,60.07604425537386,
0,0,0,0,73,0,73,0,,,,orange,90.42067230003886,91.17569280002499,None,0,90.42067230003886,None,90.42067230003886,91.17569280002499,90.42067230003886,None,,,a,001,2020_Jul_30_2032,goNogoAlpha4,2020.1.3,60.07604425537386,
0,0,0,0,74,0,74,0,,,space,blue,91.41984390001744,92.17553970002336,None,0,91.41984390001744,None,91.41984390001744,92.17553970002336,91.41984390001744,None,,,a,001,2020_Jul_30_2032,goNogoAlpha4,2020.1.3,60.07604425537386,
0,0,0,0,75,0,75,0,,,space,blue,92.41474570002174,93.17543180001667,None,0,92.41474570002174,None,92.41474570002174,93.17543180001667,92.41474570002174,None,,,a,001,2020_Jul_30_2032,goNogoAlpha4,2020.1.3,60.07604425537386,
0,0,0,0,76,0,76,0,,,space,blue,93.41621630004374,94.17496190004749,None,0,93.41621630004374,None,93.41621630004374,94.17496190004749,93.41621630004374,None,,,a,001,2020_Jul_30_2032,goNogoAlpha4,2020.1.3,60.07604425537386,
0,0,0,0,77,0,77,0,,,space,blue,94.41621729999315,95.17486120003741,None,0,94.41621729999315,None,94.41621729999315,95.17486120003741,94.41621729999315,None,,,a,001,2020_Jul_30_2032,goNogoAlpha4,2020.1.3,60.07604425537386,
0,0,0,0,78,0,78,0,,,space,blue,95.42346970003564,96.17450720001943,None,0,95.42346970003564,None,95.42346970003564,96.17450720001943,95.42346970003564,None,,,a,001,2020_Jul_30_2032,goNogoAlpha4,2020.1.3,60.07604425537386,
0,0,0,0,79,0,79,0,,,,orange,96.41988600004697,97.1742359000491,None,0,96.41988600004697,None,96.41988600004697,97.1742359000491,96.41988600004697,None,,,a,001,2020_Jul_30_2032,goNogoAlpha4,2020.1.3,60.07604425537386,
0,0,0,0,80,0,80,0,,,space,blue,97.41615220002132,98.17406480002683,None,0,97.41615220002132,None,97.41615220002132,98.17406480002683,97.41615220002132,None,,,a,001,2020_Jul_30_2032,goNogoAlpha4,2020.1.3,60.07604425537386,
0,0,0,0,81,0,81,0,,,space,blue,98.41490680002607,99.17380610003602,None,0,98.41490680002607,None,98.41490680002607,99.17380610003602,98.41490680002607,None,,,a,001,2020_Jul_30_2032,goNogoAlpha4,2020.1.3,60.07604425537386,
0,0,0,0,82,0,82,0,,,space,blue,99.41467300005024,100.17366110003786,None,0,99.41467300005024,None,99.41467300005024,100.17366110003786,99.41467300005024,None,,,a,001,2020_Jul_30_2032,goNogoAlpha4,2020.1.3,60.07604425537386,
0,0,0,0,83,0,83,0,,,space,blue,100.41355180001119,101.17386939999415,None,0,100.41355180001119,None,100.41355180001119,101.17386939999415,100.41355180001119,None,,,a,001,2020_Jul_30_2032,goNogoAlpha4,2020.1.3,60.07604425537386,
0,0,0,0,84,0,84,0,,,,orange,101.41892590001225,102.17306890001055,None,0,101.41892590001225,None,101.41892590001225,102.17306890001055,101.41892590001225,None,,,a,001,2020_Jul_30_2032,goNogoAlpha4,2020.1.3,60.07604425537386,
0,0,0,0,85,0,85,0,,,space,blue,102.41691750002792,103.1727909000474,None,0,102.41691750002792,None,102.41691750002792,103.1727909000474,102.41691750002792,None,,,a,001,2020_Jul_30_2032,goNogoAlpha4,2020.1.3,60.07604425537386,
0,0,0,0,86,0,86,0,,,space,blue,103.4138493000064,104.1725626999978,None,0,103.4138493000064,None,103.4138493000064,104.1725626999978,103.4138493000064,None,,,a,001,2020_Jul_30_2032,goNogoAlpha4,2020.1.3,60.07604425537386,
0,0,0,0,87,0,87,0,,,space,blue,104.41494440002134,105.17236880003475,None,0,104.41494440002134,None,104.41494440002134,105.17236880003475,104.41494440002134,None,,,a,001,2020_Jul_30_2032,goNogoAlpha4,2020.1.3,60.07604425537386,
0,0,0,0,88,0,88,0,,,space,blue,105.41348480002489,106.17205600003945,None,0,105.41348480002489,None,105.41348480002489,106.17205600003945,105.41348480002489,None,,,a,001,2020_Jul_30_2032,goNogoAlpha4,2020.1.3,60.07604425537386,
0,0,0,0,89,0,89,0,,,,orange,106.4192430000403,107.17183639999712,None,0,106.4192430000403,None,106.4192430000403,107.17183639999712,106.4192430000403,None,,,a,001,2020_Jul_30_2032,goNogoAlpha4,2020.1.3,60.07604425537386,
0,0,0,0,90,0,90,0,,,,orange,107.4129316000035,108.17212310002651,None,0,107.4129316000035,None,107.4129316000035,108.17212310002651,107.4129316000035,None,,,a,001,2020_Jul_30_2032,goNogoAlpha4,2020.1.3,60.07604425537386,
0,0,0,0,91,0,91,0,,,space,blue,108.41451750003034,109.17125630000373,None,0,108.41451750003034,None,108.41451750003034,109.17125630000373,108.41451750003034,None,,,a,001,2020_Jul_30_2032,goNogoAlpha4,2020.1.3,60.07604425537386,
0,0,0,0,92,0,92,0,,,space,blue,109.41253400000278,110.1710626000422,None,0,109.41253400000278,None,109.41253400000278,110.1710626000422,109.41253400000278,None,,,a,001,2020_Jul_30_2032,goNogoAlpha4,2020.1.3,60.07604425537386,
0,0,0,0,93,0,93,0,,,space,blue,110.41217369999504,111.17065800004639,None,0,110.41217369999504,None,110.41217369999504,111.17065800004639,110.41217369999504,None,,,a,001,2020_Jul_30_2032,goNogoAlpha4,2020.1.3,60.07604425537386,
0,0,0,0,94,0,94,0,,,space,blue,111.4128804000211,112.17079370003194,None,0,111.4128804000211,None,111.4128804000211,112.17079370003194,111.4128804000211,None,,,a,001,2020_Jul_30_2032,goNogoAlpha4,2020.1.3,60.07604425537386,
0,0,0,0,95,0,95,0,,,space,blue,112.41164190002019,113.17041459999746,None,0,112.41164190002019,None,112.41164190002019,113.17041459999746,112.41164190002019,None,,,a,001,2020_Jul_30_2032,goNogoAlpha4,2020.1.3,60.07604425537386,
0,0,0,0,96,0,96,0,,,space,blue,113.41028140002163,114.17002910003066,None,0,113.41028140002163,None,113.41028140002163,114.17002910003066,113.41028140002163,None,,,a,001,2020_Jul_30_2032,goNogoAlpha4,2020.1.3,60.07604425537386,
0,0,0,0,97,0,97,0,,,,orange,114.41586030001054,115.16972130001523,None,0,114.41586030001054,None,114.41586030001054,115.16972130001523,114.41586030001054,None,,,a,001,2020_Jul_30_2032,goNogoAlpha4,2020.1.3,60.07604425537386,
0,0,0,0,98,0,98,0,,,space,blue,115.41656350000994,116.16979010001523,None,0,115.41656350000994,None,115.41656350000994,116.16979010001523,115.41656350000994,None,,,a,001,2020_Jul_30_2032,goNogoAlpha4,2020.1.3,60.07604425537386,
0,0,0,0,99,0,99,0,,,space,blue,116.40719060000265,117.1694329000311,None,0,116.40719060000265,None,116.40719060000265,117.1694329000311,116.40719060000265,None,,,a,001,2020_Jul_30_2032,goNogoAlpha4,2020.1.3,60.07604425537386,
0,0,0,0,,,,,,,,,,,,,,,,,,,,,a,001,2020_Jul_30_2032,goNogoAlpha4,2020.1.3,60.07604425537386,
1,0,1,0,0,0,0,0,117.43028890003916,None,space,blue,118.4273261000053,119.18540170002962,None,0,118.4273261000053,None,118.4273261000053,119.18540170002962,118.4273261000053,None,,,a,001,2020_Jul_30_2032,goNogoAlpha4,2020.1.3,60.07604425537386,
1,0,1,0,1,0,1,0,,,space,blue,119.44495820003795,120.20200930000283,None,0,119.44495820003795,None,119.44495820003795,120.20200930000283,119.44495820003795,None,,,a,001,2020_Jul_30_2032,goNogoAlpha4,2020.1.3,60.07604425537386,
1,0,1,0,2,0,2,0,,,,orange,120.45324280002387,121.2183989000041,None,0,120.45324280002387,None,120.45324280002387,121.2183989000041,120.45324280002387,None,,,a,001,2020_Jul_30_2032,goNogoAlpha4,2020.1.3,60.07604425537386,
1,0,1,0,3,0,3,0,,,space,blue,121.44939950003754,122.20139010000275,None,0,121.44939950003754,None,121.44939950003754,122.20139010000275,121.44939950003754,None,,,a,001,2020_Jul_30_2032,goNogoAlpha4,2020.1.3,60.07604425537386,
1,0,1,0,4,0,4,0,,,space,blue,122.4431783000473,123.20175770000787,None,0,122.4431783000473,None,122.4431783000473,123.20175770000787,122.4431783000473,None,,,a,001,2020_Jul_30_2032,goNogoAlpha4,2020.1.3,60.07604425537386,
1,0,1,0,5,0,5,0,,,space,blue,123.43973460001871,124.20088439999381,None,0,123.43973460001871,None,123.43973460001871,124.20088439999381,123.43973460001871,None,,,a,001,2020_Jul_30_2032,goNogoAlpha4,2020.1.3,60.07604425537386,
1,0,1,0,6,0,6,0,,,space,blue,124.43770540005062,125.20064270001603,None,0,124.43770540005062,None,124.43770540005062,125.20064270001603,124.43770540005062,None,,,a,001,2020_Jul_30_2032,goNogoAlpha4,2020.1.3,60.07604425537386,
1,0,1,0,7,0,7,0,,,,orange,125.44623640005011,126.20045130001381,None,0,125.44623640005011,None,125.44623640005011,126.20045130001381,125.44623640005011,None,,,a,001,2020_Jul_30_2032,goNogoAlpha4,2020.1.3,60.07604425537386,
1,0,1,0,8,0,8,0,,,space,blue,126.4442512000096,127.20002590003423,None,0,126.4442512000096,None,126.4442512000096,127.20002590003423,126.4442512000096,None,,,a,001,2020_Jul_30_2032,goNogoAlpha4,2020.1.3,60.07604425537386,
1,0,1,0,9,0,9,0,,,space,blue,127.44124060001923,128.1997665000381,None,0,127.44124060001923,None,127.44124060001923,128.1997665000381,127.44124060001923,None,,,a,001,2020_Jul_30_2032,goNogoAlpha4,2020.1.3,60.07604425537386,
1,0,1,0,10,0,10,0,,,space,blue,128.43913170002634,129.1995422000182,None,0,128.43913170002634,None,128.43913170002634,129.1995422000182,128.43913170002634,None,,,a,001,2020_Jul_30_2032,goNogoAlpha4,2020.1.3,60.07604425537386,
1,0,1,0,11,0,11,0,,,space,blue,129.43958720000228,130.19921380002052,None,0,129.43958720000228,None,129.43958720000228,130.19921380002052,129.43958720000228,None,,,a,001,2020_Jul_30_2032,goNogoAlpha4,2020.1.3,60.07604425537386,
1,0,1,0,12,0,12,0,,,space,blue,130.44145820004633,131.199126099993,None,0,130.44145820004633,None,130.44145820004633,131.199126099993,130.44145820004633,None,,,a,001,2020_Jul_30_2032,goNogoAlpha4,2020.1.3,60.07604425537386,
1,0,1,0,13,0,13,0,,,space,blue,131.44089359999634,132.19903030002024,None,0,131.44089359999634,None,131.44089359999634,132.19903030002024,131.44089359999634,None,,,a,001,2020_Jul_30_2032,goNogoAlpha4,2020.1.3,60.07604425537386,
1,0,1,0,14,0,14,0,,,space,blue,132.44154540001182,133.19861060002586,None,0,132.44154540001182,None,132.44154540001182,133.19861060002586,132.44154540001182,None,,,a,001,2020_Jul_30_2032,goNogoAlpha4,2020.1.3,60.07604425537386,
1,0,1,0,15,0,15,0,,,space,blue,133.44115490000695,134.19860030000564,None,0,133.44115490000695,None,133.44115490000695,134.19860030000564,133.44115490000695,None,,,a,001,2020_Jul_30_2032,goNogoAlpha4,2020.1.3,60.07604425537386,
1,0,1,0,16,0,16,0,,,space,blue,134.4414645000361,135.19830460002413,None,0,134.4414645000361,None,134.4414645000361,135.19830460002413,134.4414645000361,None,,,a,001,2020_Jul_30_2032,goNogoAlpha4,2020.1.3,60.07604425537386,
1,0,1,0,17,0,17,0,,,space,blue,135.43767300003674,136.19790870003635,None,0,135.43767300003674,None,135.43767300003674,136.19790870003635,135.43767300003674,None,,,a,001,2020_Jul_30_2032,goNogoAlpha4,2020.1.3,60.07604425537386,
1,0,1,0,18,0,18,0,,,space,blue,136.43998800002737,137.19783499999903,None,0,136.43998800002737,None,136.43998800002737,137.19783499999903,136.43998800002737,None,,,a,001,2020_Jul_30_2032,goNogoAlpha4,2020.1.3,60.07604425537386,
1,0,1,0,19,0,19,0,,,space,blue,137.43980150000425,138.19761250005104,None,0,137.43980150000425,None,137.43980150000425,138.19761250005104,137.43980150000425,None,,,a,001,2020_Jul_30_2032,goNogoAlpha4,2020.1.3,60.07604425537386,
1,0,1,0,20,0,20,0,,,space,blue,138.4386247000075,139.19699100003345,None,0,138.4386247000075,None,138.4386247000075,139.19699100003345,138.4386247000075,None,,,a,001,2020_Jul_30_2032,goNogoAlpha4,2020.1.3,60.07604425537386,
1,0,1,0,21,0,21,0,,,space,blue,139.4382462000358,140.19680060003884,None,0,139.4382462000358,None,139.4382462000358,140.19680060003884,139.4382462000358,None,,,a,001,2020_Jul_30_2032,goNogoAlpha4,2020.1.3,60.07604425537386,
1,0,1,0,22,0,22,0,,,space,blue,140.43929020001087,141.19645960000344,None,0,140.43929020001087,None,140.43929020001087,141.19645960000344,140.43929020001087,None,,,a,001,2020_Jul_30_2032,goNogoAlpha4,2020.1.3,60.07604425537386,
1,0,1,0,23,0,23,0,,,space,blue,141.43763290002244,142.19626640004572,None,0,141.43763290002244,None,141.43763290002244,142.19626640004572,141.43763290002244,None,,,a,001,2020_Jul_30_2032,goNogoAlpha4,2020.1.3,60.07604425537386,
1,0,1,0,24,0,24,0,,,space,blue,142.43493380001746,143.19625900004758,None,0,142.43493380001746,None,142.43493380001746,143.19625900004758,142.43493380001746,None,,,a,001,2020_Jul_30_2032,goNogoAlpha4,2020.1.3,60.07604425537386,
1,0,1,0,25,0,25,0,,,space,blue,143.4376027000253,144.1957389000454,None,0,143.4376027000253,None,143.4376027000253,144.1957389000454,143.4376027000253,None,,,a,001,2020_Jul_30_2032,goNogoAlpha4,2020.1.3,60.07604425537386,
1,0,1,0,26,0,26,0,,,,orange,144.4407584000146,145.1955932000419,None,0,144.4407584000146,None,144.4407584000146,145.1955932000419,144.4407584000146,None,,,a,001,2020_Jul_30_2032,goNogoAlpha4,2020.1.3,60.07604425537386,
1,0,1,0,27,0,27,0,,,space,blue,145.43708620005054,146.19517600000836,None,0,145.43708620005054,None,145.43708620005054,146.19517600000836,145.43708620005054,None,,,a,001,2020_Jul_30_2032,goNogoAlpha4,2020.1.3,60.07604425537386,
1,0,1,0,28,0,28,0,,,space,blue,146.43759500002488,147.1950491000316,None,0,146.43759500002488,None,146.43759500002488,147.1950491000316,146.43759500002488,None,,,a,001,2020_Jul_30_2032,goNogoAlpha4,2020.1.3,60.07604425537386,
1,0,1,0,29,0,29,0,,,space,blue,147.43709680001484,148.19481440004893,None,0,147.43709680001484,None,147.43709680001484,148.19481440004893,147.43709680001484,None,,,a,001,2020_Jul_30_2032,goNogoAlpha4,2020.1.3,60.07604425537386,
1,0,1,0,30,0,30,0,,,space,blue,148.4370770000387,149.19594060000964,None,0,148.4370770000387,None,148.4370770000387,149.19594060000964,148.4370770000387,None,,,a,001,2020_Jul_30_2032,goNogoAlpha4,2020.1.3,60.07604425537386,
1,0,1,0,31,0,31,0,,,space,blue,149.437148099998,150.19548009999562,None,0,149.437148099998,None,149.437148099998,150.19548009999562,149.437148099998,None,,,a,001,2020_Jul_30_2032,goNogoAlpha4,2020.1.3,60.07604425537386,
1,0,1,0,32,0,32,0,,,space,blue,150.43378459999803,151.19397950003622,None,0,150.43378459999803,None,150.43378459999803,151.19397950003622,150.43378459999803,None,,,a,001,2020_Jul_30_2032,goNogoAlpha4,2020.1.3,60.07604425537386,
1,0,1,0,33,0,33,0,,,space,blue,151.43565769999987,152.19441799999913,None,0,151.43565769999987,None,151.43565769999987,152.19441799999913,151.43565769999987,None,,,a,001,2020_Jul_30_2032,goNogoAlpha4,2020.1.3,60.07604425537386,
1,0,1,0,34,0,34,0,,,space,blue,152.43347150000045,153.1936224999954,None,0,152.43347150000045,None,152.43347150000045,153.1936224999954,152.43347150000045,None,,,a,001,2020_Jul_30_2032,goNogoAlpha4,2020.1.3,60.07604425537386,
1,0,1,0,35,0,35,0,,,space,blue,153.43569920002483,154.19330929999705,None,0,153.43569920002483,None,153.43569920002483,154.19330929999705,153.43569920002483,None,,,a,001,2020_Jul_30_2032,goNogoAlpha4,2020.1.3,60.07604425537386,
1,0,1,0,36,0,36,0,,,space,blue,154.43434630002594,155.1929338000482,None,0,154.43434630002594,None,154.43434630002594,155.1929338000482,154.43434630002594,None,,,a,001,2020_Jul_30_2032,goNogoAlpha4,2020.1.3,60.07604425537386,
1,0,1,0,37,0,37,0,,,space,blue,155.43313310004305,156.1927630000282,None,0,155.43313310004305,None,155.43313310004305,156.1927630000282,155.43313310004305,None,,,a,001,2020_Jul_30_2032,goNogoAlpha4,2020.1.3,60.07604425537386,
1,0,1,0,38,0,38,0,,,,orange,156.43521900003543,157.19247110001743,None,0,156.43521900003543,None,156.43521900003543,157.19247110001743,156.43521900003543,None,,,a,001,2020_Jul_30_2032,goNogoAlpha4,2020.1.3,60.07604425537386,
1,0,1,0,39,0,39,0,,,space,blue,157.4361797000165,158.19223220000276,None,0,157.4361797000165,None,157.4361797000165,158.19223220000276,157.4361797000165,None,,,a,001,2020_Jul_30_2032,goNogoAlpha4,2020.1.3,60.07604425537386,
1,0,1,0,40,0,40,0,,,space,blue,158.43348350003362,159.19218340003863,None,0,158.43348350003362,None,158.43348350003362,159.19218340003863,158.43348350003362,None,,,a,001,2020_Jul_30_2032,goNogoAlpha4,2020.1.3,60.07604425537386,
1,0,1,0,41,0,41,0,,,space,blue,159.43337159999646,160.1917690000264,None,0,159.43337159999646,None,159.43337159999646,160.1917690000264,159.43337159999646,None,,,a,001,2020_Jul_30_2032,goNogoAlpha4,2020.1.3,60.07604425537386,
1,0,1,0,42,0,42,0,,,space,blue,160.43277549999766,161.1916734999977,None,0,160.43277549999766,None,160.43277549999766,161.1916734999977,160.43277549999766,None,,,a,001,2020_Jul_30_2032,goNogoAlpha4,2020.1.3,60.07604425537386,
1,0,1,0,43,0,43,0,,,space,blue,161.43045990000246,162.19126660004258,None,0,161.43045990000246,None,161.43045990000246,162.19126660004258,161.43045990000246,None,,,a,001,2020_Jul_30_2032,goNogoAlpha4,2020.1.3,60.07604425537386,
1,0,1,0,44,0,44,0,,,space,blue,162.43531850003637,163.19139490003,None,0,162.43531850003637,None,162.43531850003637,163.19139490003,162.43531850003637,None,,,a,001,2020_Jul_30_2032,goNogoAlpha4,2020.1.3,60.07604425537386,
1,0,1,0,45,0,45,0,,,,orange,163.43500110000605,164.19084490003297,None,0,163.43500110000605,None,163.43500110000605,164.19084490003297,163.43500110000605,None,,,a,001,2020_Jul_30_2032,goNogoAlpha4,2020.1.3,60.07604425537386,
1,0,1,0,46,0,46,0,,,,orange,164.43328540003859,165.1905584000051,None,0,164.43328540003859,None,164.43328540003859,165.1905584000051,164.43328540003859,None,,,a,001,2020_Jul_30_2032,goNogoAlpha4,2020.1.3,60.07604425537386,
1,0,1,0,47,0,47,0,,,,orange,165.4315956000355,166.19019009999465,None,0,165.4315956000355,None,165.4315956000355,166.19019009999465,165.4315956000355,None,,,a,001,2020_Jul_30_2032,goNogoAlpha4,2020.1.3,60.07604425537386,
1,0,1,0,48,0,48,0,,,space,blue,166.43242520000786,167.19012490002206,None,0,166.43242520000786,None,166.43242520000786,167.19012490002206,166.43242520000786,None,,,a,001,2020_Jul_30_2032,goNogoAlpha4,2020.1.3,60.07604425537386,
1,0,1,0,49,0,49,0,,,space,blue,167.4488832000061,168.20645230001537,None,0,167.4488832000061,None,167.4488832000061,168.20645230001537,167.4488832000061,None,,,a,001,2020_Jul_30_2032,goNogoAlpha4,2020.1.3,60.07604425537386,
1,0,1,0,50,0,50,0,,,,orange,168.44932840002002,169.20628159999615,None,0,168.44932840002002,None,168.44932840002002,169.20628159999615,168.44932840002002,None,,,a,001,2020_Jul_30_2032,goNogoAlpha4,2020.1.3,60.07604425537386,
1,0,1,0,51,0,51,0,,,space,blue,169.45044889999554,170.20588680001674,None,0,169.45044889999554,None,169.45044889999554,170.20588680001674,169.45044889999554,None,,,a,001,2020_Jul_30_2032,goNogoAlpha4,2020.1.3,60.07604425537386,
1,0,1,0,52,0,52,0,,,space,blue,170.4469761000364,171.20606500003487,None,0,170.4469761000364,None,170.4469761000364,171.20606500003487,170.4469761000364,None,,,a,001,2020_Jul_30_2032,goNogoAlpha4,2020.1.3,60.07604425537386,
1,0,1,0,53,0,53,0,,,space,blue,171.44364790001418,172.2055524000316,None,0,171.44364790001418,None,171.44364790001418,172.2055524000316,171.44364790001418,None,,,a,001,2020_Jul_30_2032,goNogoAlpha4,2020.1.3,60.07604425537386,
1,0,1,0,54,0,54,0,,,,orange,172.4483709000051,173.20517339999788,None,0,172.4483709000051,None,172.4483709000051,173.20517339999788,172.4483709000051,None,,,a,001,2020_Jul_30_2032,goNogoAlpha4,2020.1.3,60.07604425537386,
1,0,1,0,55,0,55,0,,,space,blue,173.44614320003893,174.20489059999818,None,0,173.44614320003893,None,173.44614320003893,174.20489059999818,173.44614320003893,None,,,a,001,2020_Jul_30_2032,goNogoAlpha4,2020.1.3,60.07604425537386,
1,0,1,0,56,0,56,0,,,space,blue,174.44684950000374,175.2047946000239,None,0,174.44684950000374,None,174.44684950000374,175.2047946000239,174.44684950000374,None,,,a,001,2020_Jul_30_2032,goNogoAlpha4,2020.1.3,60.07604425537386,
1,0,1,0,57,0,57,0,,,space,blue,175.44573150004726,176.20467550004832,None,0,175.44573150004726,None,175.44573150004726,176.20467550004832,175.44573150004726,None,,,a,001,2020_Jul_30_2032,goNogoAlpha4,2020.1.3,60.07604425537386,
1,0,1,0,58,0,58,0,,,space,blue,176.44118130003335,177.20411320001585,None,0,176.44118130003335,None,176.44118130003335,177.20411320001585,176.44118130003335,None,,,a,001,2020_Jul_30_2032,goNogoAlpha4,2020.1.3,60.07604425537386,
1,0,1,0,59,0,59,0,,,space,blue,177.4506971000228,178.20398130000103,None,0,177.4506971000228,None,177.4506971000228,178.20398130000103,177.4506971000228,None,,,a,001,2020_Jul_30_2032,goNogoAlpha4,2020.1.3,60.07604425537386,
1,0,1,0,60,0,60,0,,,space,blue,178.44489020004403,179.20357400004286,None,0,178.44489020004403,None,178.44489020004403,179.20357400004286,178.44489020004403,None,,,a,001,2020_Jul_30_2032,goNogoAlpha4,2020.1.3,60.07604425537386,
1,0,1,0,61,0,61,0,,,space,blue,179.44438330002595,180.20361940003932,None,0,179.44438330002595,None,179.44438330002595,180.20361940003932,179.44438330002595,None,,,a,001,2020_Jul_30_2032,goNogoAlpha4,2020.1.3,60.07604425537386,
1,0,1,0,62,0,62,0,,,space,blue,180.44687270000577,181.20310010004323,None,0,180.44687270000577,None,180.44687270000577,181.20310010004323,180.44687270000577,None,,,a,001,2020_Jul_30_2032,goNogoAlpha4,2020.1.3,60.07604425537386,
1,0,1,0,63,0,63,0,,,,orange,181.4501137000043,182.20290760003263,None,0,181.4501137000043,None,181.4501137000043,182.20290760003263,181.4501137000043,None,,,a,001,2020_Jul_30_2032,goNogoAlpha4,2020.1.3,60.07604425537386,
1,0,1,0,64,0,64,0,,,,orange,182.44607720000204,183.20260250003776,None,0,182.44607720000204,None,182.44607720000204,183.20260250003776,182.44607720000204,None,,,a,001,2020_Jul_30_2032,goNogoAlpha4,2020.1.3,60.07604425537386,
1,0,1,0,65,0,65,0,,,space,blue,183.44761740003014,184.20230610005092,None,0,183.44761740003014,None,183.44761740003014,184.20230610005092,183.44761740003014,None,,,a,001,2020_Jul_30_2032,goNogoAlpha4,2020.1.3,60.07604425537386,
1,0,1,0,66,0,66,0,,,space,blue,184.44248220004374,185.20215470000403,None,0,184.44248220004374,None,184.44248220004374,185.20215470000403,184.44248220004374,None,,,a,001,2020_Jul_30_2032,goNogoAlpha4,2020.1.3,60.07604425537386,
1,0,1,0,67,0,67,0,,,space,blue,185.44421490002424,186.20233960001497,None,0,185.44421490002424,None,185.44421490002424,186.20233960001497,185.44421490002424,None,,,a,001,2020_Jul_30_2032,goNogoAlpha4,2020.1.3,60.07604425537386,
1,0,1,0,68,0,68,0,,,space,blue,186.44337470002938,187.20162030000938,None,0,186.44337470002938,None,186.44337470002938,187.20162030000938,186.44337470002938,None,,,a,001,2020_Jul_30_2032,goNogoAlpha4,2020.1.3,60.07604425537386,
1,0,1,0,69,0,69,0,,,space,blue,187.44068560004234,188.2014737999998,None,0,187.44068560004234,None,187.44068560004234,188.2014737999998,187.44068560004234,None,,,a,001,2020_Jul_30_2032,goNogoAlpha4,2020.1.3,60.07604425537386,
1,0,1,0,70,0,70,0,,,,orange,188.44347749999724,189.20107760000974,None,0,188.44347749999724,None,188.44347749999724,189.20107760000974,188.44347749999724,None,,,a,001,2020_Jul_30_2032,goNogoAlpha4,2020.1.3,60.07604425537386,
1,0,1,0,71,0,71,0,,,space,blue,189.44264330004808,190.20100950001506,None,0,189.44264330004808,None,189.44264330004808,190.20100950001506,189.44264330004808,None,,,a,001,2020_Jul_30_2032,goNogoAlpha4,2020.1.3,60.07604425537386,
1,0,1,0,72,0,72,0,,,space,blue,190.44345399999293,191.2005828000256,None,0,190.44345399999293,None,190.44345399999293,191.2005828000256,190.44345399999293,None,,,a,001,2020_Jul_30_2032,goNogoAlpha4,2020.1.3,60.07604425537386,
1,0,1,0,73,0,73,0,,,,orange,191.4511553000193,192.200771600008,None,0,191.4511553000193,None,191.4511553000193,192.200771600008,191.4511553000193,None,,,a,001,2020_Jul_30_2032,goNogoAlpha4,2020.1.3,60.07604425537386,
1,0,1,0,74,0,74,0,,,space,blue,192.44542290002573,193.20022280002013,None,0,192.44542290002573,None,192.44542290002573,193.20022280002013,192.44542290002573,None,,,a,001,2020_Jul_30_2032,goNogoAlpha4,2020.1.3,60.07604425537386,
1,0,1,0,75,0,75,0,,,,orange,193.4436096000136,194.1998327000183,None,0,193.4436096000136,None,193.4436096000136,194.1998327000183,193.4436096000136,None,,,a,001,2020_Jul_30_2032,goNogoAlpha4,2020.1.3,60.07604425537386,
1,0,1,0,76,0,76,0,,,,orange,194.44086380000226,195.19981990003726,None,0,194.44086380000226,None,194.44086380000226,195.19981990003726,194.44086380000226,None,,,a,001,2020_Jul_30_2032,goNogoAlpha4,2020.1.3,60.07604425537386,
1,0,1,0,77,0,77,0,,,,orange,195.44160980003653,196.1994629999972,None,0,195.44160980003653,None,195.44160980003653,196.1994629999972,195.44160980003653,None,,,a,001,2020_Jul_30_2032,goNogoAlpha4,2020.1.3,60.07604425537386,
1,0,1,0,78,0,78,0,,,space,blue,196.44405809999444,197.19919010001468,None,0,196.44405809999444,None,196.44405809999444,197.19919010001468,196.44405809999444,None,,,a,001,2020_Jul_30_2032,goNogoAlpha4,2020.1.3,60.07604425537386,
1,0,1,0,79,0,79,0,,,space,blue,197.4411431000335,198.19879320001928,None,0,197.4411431000335,None,197.4411431000335,198.19879320001928,197.4411431000335,None,,,a,001,2020_Jul_30_2032,goNogoAlpha4,2020.1.3,60.07604425537386,
1,0,1,0,80,0,80,0,,,space,blue,198.44028760003857,199.1988858000259,None,0,198.44028760003857,None,198.44028760003857,199.1988858000259,198.44028760003857,None,,,a,001,2020_Jul_30_2032,goNogoAlpha4,2020.1.3,60.07604425537386,
1,0,1,0,81,0,81,0,,,space,blue,199.43849650002085,200.1983850999968,None,0,199.43849650002085,None,199.43849650002085,200.1983850999968,199.43849650002085,None,,,a,001,2020_Jul_30_2032,goNogoAlpha4,2020.1.3,60.07604425537386,
1,0,1,0,82,0,82,0,,,space,blue,200.4401703000185,201.19812920002732,None,0,200.4401703000185,None,200.4401703000185,201.19812920002732,200.4401703000185,None,,,a,001,2020_Jul_30_2032,goNogoAlpha4,2020.1.3,60.07604425537386,
1,0,1,0,83,0,83,0,,,space,blue,201.44045740005095,202.19787930004532,None,0,201.44045740005095,None,201.44045740005095,202.19787930004532,201.44045740005095,None,,,a,001,2020_Jul_30_2032,goNogoAlpha4,2020.1.3,60.07604425537386,
1,0,1,0,84,0,84,0,,,space,blue,202.4420039000106,203.1976317000226,None,0,202.4420039000106,None,202.4420039000106,203.1976317000226,202.4420039000106,None,,,a,001,2020_Jul_30_2032,goNogoAlpha4,2020.1.3,60.07604425537386,
1,0,1,0,85,0,85,0,,,space,blue,203.43975030002184,204.19731640000828,None,0,203.43975030002184,None,203.43975030002184,204.19731640000828,203.43975030002184,None,,,a,001,2020_Jul_30_2032,goNogoAlpha4,2020.1.3,60.07604425537386,
1,0,1,0,86,0,86,0,,,space,blue,204.4395672000246,205.19719200005056,None,0,204.4395672000246,None,204.4395672000246,205.19719200005056,204.4395672000246,None,,,a,001,2020_Jul_30_2032,goNogoAlpha4,2020.1.3,60.07604425537386,
1,0,1,0,87,0,87,0,,,space,blue,205.43485780002084,206.19709860003786,None,0,205.43485780002084,None,205.43485780002084,206.19709860003786,205.43485780002084,None,,,a,001,2020_Jul_30_2032,goNogoAlpha4,2020.1.3,60.07604425537386,
1,0,1,0,88,0,88,0,,,space,blue,206.43617210001685,207.19670380000025,None,0,206.43617210001685,None,206.43617210001685,207.19670380000025,206.43617210001685,None,,,a,001,2020_Jul_30_2032,goNogoAlpha4,2020.1.3,60.07604425537386,
1,0,1,0,89,0,89,0,,,,orange,207.4414585000486,208.19635090004886,None,0,207.4414585000486,None,207.4414585000486,208.19635090004886,207.4414585000486,None,,,a,001,2020_Jul_30_2032,goNogoAlpha4,2020.1.3,60.07604425537386,
1,0,1,0,90,0,90,0,,,,orange,208.43849570001476,209.1961803000304,None,0,208.43849570001476,None,208.43849570001476,209.1961803000304,208.43849570001476,None,,,a,001,2020_Jul_30_2032,goNogoAlpha4,2020.1.3,60.07604425537386,
1,0,1,0,91,0,91,0,,,space,blue,209.44195910001872,210.19588910002494,None,0,209.44195910001872,None,209.44195910001872,210.19588910002494,209.44195910001872,None,,,a,001,2020_Jul_30_2032,goNogoAlpha4,2020.1.3,60.07604425537386,
1,0,1,0,92,0,92,0,,,,orange,210.44152730004862,211.19556439999724,None,0,210.44152730004862,None,210.44152730004862,211.19556439999724,210.44152730004862,None,,,a,001,2020_Jul_30_2032,goNogoAlpha4,2020.1.3,60.07604425537386,
1,0,1,0,93,0,93,0,,,space,blue,211.43713180004852,212.19540580001194,None,0,211.43713180004852,None,211.43713180004852,212.19540580001194,211.43713180004852,None,,,a,001,2020_Jul_30_2032,goNogoAlpha4,2020.1.3,60.07604425537386,
1,0,1,0,94,0,94,0,,,space,blue,212.43733420001809,213.1952522000065,None,0,212.43733420001809,None,212.43733420001809,213.1952522000065,212.43733420001809,None,,,a,001,2020_Jul_30_2032,goNogoAlpha4,2020.1.3,60.07604425537386,
1,0,1,0,95,0,95,0,,,space,blue,213.43218820000766,214.1952278999961,None,0,213.43218820000766,None,213.43218820000766,214.1952278999961,213.43218820000766,None,,,a,001,2020_Jul_30_2032,goNogoAlpha4,2020.1.3,60.07604425537386,
1,0,1,0,96,0,96,0,,,space,blue,214.44597760000033,215.21137410000665,None,0,214.44597760000033,None,214.44597760000033,215.21137410000665,214.44597760000033,None,,,a,001,2020_Jul_30_2032,goNogoAlpha4,2020.1.3,60.07604425537386,
1,0,1,0,97,0,97,0,,,,orange,215.44549160002498,216.2114816000103,None,0,215.44549160002498,None,215.44549160002498,216.2114816000103,215.44549160002498,None,,,a,001,2020_Jul_30_2032,goNogoAlpha4,2020.1.3,60.07604425537386,
1,0,1,0,98,0,98,0,,,space,blue,216.44210179999936,217.19407730002422,None,0,216.44210179999936,None,216.44210179999936,217.19407730002422,216.44210179999936,None,,,a,001,2020_Jul_30_2032,goNogoAlpha4,2020.1.3,60.07604425537386,
1,0,1,0,99,0,99,0,,,space,blue,217.4365950000356,218.19400740001583,None,0,217.4365950000356,None,217.4365950000356,218.19400740001583,217.4365950000356,None,,,a,001,2020_Jul_30_2032,goNogoAlpha4,2020.1.3,60.07604425537386,
1,0,1,0,,,,,,,,,,,,,,,,,,,,,a,001,2020_Jul_30_2032,goNogoAlpha4,2020.1.3,60.07604425537386,
2,0,2,0,0,0,0,0,218.42939340003068,None,space,blue,232.36240010004258,233.1236973000341,None,0,232.36240010004258,None,232.36240010004258,233.1236973000341,232.36240010004258,None,,,a,001,2020_Jul_30_2032,goNogoAlpha4,2020.1.3,60.07604425537386,
2,0,2,0,1,0,1,0,,,,orange,233.38665620004758,234.14008110004943,None,0,233.38665620004758,None,233.38665620004758,234.14008110004943,233.38665620004758,None,,,a,001,2020_Jul_30_2032,goNogoAlpha4,2020.1.3,60.07604425537386,
2,0,2,0,2,0,2,0,,,,orange,234.38115190004464,235.13984770001844,None,0,234.38115190004464,None,234.38115190004464,235.13984770001844,234.38115190004464,None,,,a,001,2020_Jul_30_2032,goNogoAlpha4,2020.1.3,60.07604425537386,
2,0,2,0,3,0,3,0,,,space,blue,235.3843576000072,236.13960300001781,None,0,235.3843576000072,None,235.3843576000072,236.13960300001781,235.3843576000072,None,,,a,001,2020_Jul_30_2032,goNogoAlpha4,2020.1.3,60.07604425537386,
2,0,2,0,4,0,4,0,,,,orange,236.38590450002812,237.13936900004046,None,0,236.38590450002812,None,236.38590450002812,237.13936900004046,236.38590450002812,None,,,a,001,2020_Jul_30_2032,goNogoAlpha4,2020.1.3,60.07604425537386,
2,0,2,0,5,0,5,0,,,space,blue,237.38130450004246,238.1390956999967,None,0,237.38130450004246,None,237.38130450004246,238.1390956999967,237.38130450004246,None,,,a,001,2020_Jul_30_2032,goNogoAlpha4,2020.1.3,60.07604425537386,
2,0,2,0,6,0,6,0,,,space,blue,238.38070320000406,239.13887530000648,None,0,238.38070320000406,None,238.38070320000406,239.13887530000648,238.38070320000406,None,,,a,001,2020_Jul_30_2032,goNogoAlpha4,2020.1.3,60.07604425537386,
2,0,2,0,7,0,7,0,,,space,blue,239.38062800001353,240.1386196000385,None,0,239.38062800001353,None,239.38062800001353,240.1386196000385,239.38062800001353,None,,,a,001,2020_Jul_30_2032,goNogoAlpha4,2020.1.3,60.07604425537386,
2,0,2,0,8,0,8,0,,,space,blue,240.3794121000101,241.13840560003882,None,0,240.3794121000101,None,240.3794121000101,241.13840560003882,240.3794121000101,None,,,a,001,2020_Jul_30_2032,goNogoAlpha4,2020.1.3,60.07604425537386,
2,0,2,0,9,0,9,0,,,space,blue,241.3799888000358,242.13814620004268,None,0,241.3799888000358,None,241.3799888000358,242.13814620004268,241.3799888000358,None,,,a,001,2020_Jul_30_2032,goNogoAlpha4,2020.1.3,60.07604425537386,
2,0,2,0,10,0,10,0,,,space,blue,242.37755269999616,243.13788880000357,None,0,242.37755269999616,None,242.37755269999616,243.13788880000357,242.37755269999616,None,,,a,001,2020_Jul_30_2032,goNogoAlpha4,2020.1.3,60.07604425537386,
2,0,2,0,11,0,11,0,,,space,blue,243.37974380003288,244.1376297000097,None,0,243.37974380003288,None,243.37974380003288,244.1376297000097,243.37974380003288,None,,,a,001,2020_Jul_30_2032,goNogoAlpha4,2020.1.3,60.07604425537386,
2,0,2,0,12,0,12,0,,,space,blue,244.37928960000863,245.1377705000341,None,0,244.37928960000863,None,244.37928960000863,245.1377705000341,244.37928960000863,None,,,a,001,2020_Jul_30_2032,goNogoAlpha4,2020.1.3,60.07604425537386,
2,0,2,0,13,0,13,0,,,space,blue,245.38159770000493,246.13716909999494,None,0,245.38159770000493,None,245.38159770000493,246.13716909999494,245.38159770000493,None,,,a,001,2020_Jul_30_2032,goNogoAlpha4,2020.1.3,60.07604425537386,
2,0,2,0,14,0,14,0,,,,orange,246.38236370001687,247.1368815000169,None,0,246.38236370001687,None,246.38236370001687,247.1368815000169,246.38236370001687,None,,,a,001,2020_Jul_30_2032,goNogoAlpha4,2020.1.3,60.07604425537386,
2,0,2,0,15,0,15,0,,,space,blue,247.38120060000801,248.13663510000333,None,0,247.38120060000801,None,247.38120060000801,248.13663510000333,247.38120060000801,None,,,a,001,2020_Jul_30_2032,goNogoAlpha4,2020.1.3,60.07604425537386,
2,0,2,0,16,0,16,0,,,space,blue,248.3784772999934,249.13641130004544,None,0,248.3784772999934,None,248.3784772999934,249.13641130004544,248.3784772999934,None,,,a,001,2020_Jul_30_2032,goNogoAlpha4,2020.1.3,60.07604425537386,
2,0,2,0,17,0,17,0,,,space,blue,249.37436270003673,250.13606230000732,None,0,249.37436270003673,None,249.37436270003673,250.13606230000732,249.37436270003673,None,,,a,001,2020_Jul_30_2032,goNogoAlpha4,2020.1.3,60.07604425537386,
2,0,2,0,18,0,18,0,,,space,blue,250.3799018000136,251.13594790000934,None,0,250.3799018000136,None,250.3799018000136,251.13594790000934,250.3799018000136,None,,,a,001,2020_Jul_30_2032,goNogoAlpha4,2020.1.3,60.07604425537386,
2,0,2,0,19,0,19,0,,,,orange,251.38223180000205,252.13558420003392,None,0,251.38223180000205,None,251.38223180000205,252.13558420003392,251.38223180000205,None,,,a,001,2020_Jul_30_2032,goNogoAlpha4,2020.1.3,60.07604425537386,
2,0,2,0,20,0,20,0,,,space,blue,252.3812348000356,253.1353938000393,None,0,252.3812348000356,None,252.3812348000356,253.1353938000393,252.3812348000356,None,,,a,001,2020_Jul_30_2032,goNogoAlpha4,2020.1.3,60.07604425537386,
2,0,2,0,21,0,21,0,,,,orange,253.380684200034,254.13516490004258,None,0,253.380684200034,None,253.380684200034,254.13516490004258,253.380684200034,None,,,a,001,2020_Jul_30_2032,goNogoAlpha4,2020.1.3,60.07604425537386,
2,0,2,0,22,0,22,0,,,,orange,254.374945699994,255.13496500003384,None,0,254.374945699994,None,254.374945699994,255.13496500003384,254.374945699994,None,,,a,001,2020_Jul_30_2032,goNogoAlpha4,2020.1.3,60.07604425537386,
2,0,2,0,23,0,23,0,,,space,blue,255.3814596000011,256.1346360000316,None,0,255.3814596000011,None,255.3814596000011,256.1346360000316,255.3814596000011,None,,,a,001,2020_Jul_30_2032,goNogoAlpha4,2020.1.3,60.07604425537386,
2,0,2,0,24,0,24,0,,,space,blue,256.3755584000028,257.1351177000324,None,0,256.3755584000028,None,256.3755584000028,257.1351177000324,256.3755584000028,None,,,a,001,2020_Jul_30_2032,goNogoAlpha4,2020.1.3,60.07604425537386,
2,0,2,0,25,0,25,0,,,space,blue,257.3760164999985,258.1341760000214,None,0,257.3760164999985,None,257.3760164999985,258.1341760000214,257.3760164999985,None,,,a,001,2020_Jul_30_2032,goNogoAlpha4,2020.1.3,60.07604425537386,
2,0,2,0,26,0,26,0,,,,orange,258.38127240003087,259.1339180000359,None,0,258.38127240003087,None,258.38127240003087,259.1339180000359,258.38127240003087,None,,,a,001,2020_Jul_30_2032,goNogoAlpha4,2020.1.3,60.07604425537386,
2,0,2,0,27,0,27,0,,,space,blue,259.3746328999987,260.1336544000078,None,0,259.3746328999987,None,259.3746328999987,260.1336544000078,259.3746328999987,None,,,a,001,2020_Jul_30_2032,goNogoAlpha4,2020.1.3,60.07604425537386,
2,0,2,0,28,0,28,0,,,space,blue,260.37622360000387,261.1335530000506,None,0,260.37622360000387,None,260.37622360000387,261.1335530000506,260.37622360000387,None,,,a,001,2020_Jul_30_2032,goNogoAlpha4,2020.1.3,60.07604425537386,
2,0,2,0,29,0,29,0,,,,orange,261.37977310002316,262.1331341000041,None,0,261.37977310002316,None,261.37977310002316,262.1331341000041,261.37977310002316,None,,,a,001,2020_Jul_30_2032,goNogoAlpha4,2020.1.3,60.07604425537386,
2,0,2,0,30,0,30,0,,,space,blue,262.3773943000124,263.13295390002895,None,0,262.3773943000124,None,262.3773943000124,263.13295390002895,262.3773943000124,None,,,a,001,2020_Jul_30_2032,goNogoAlpha4,2020.1.3,60.07604425537386,
2,0,2,0,31,0,31,0,,,space,blue,263.37588390003657,264.1326575000421,None,0,263.37588390003657,None,263.37588390003657,264.1326575000421,263.37588390003657,None,,,a,001,2020_Jul_30_2032,goNogoAlpha4,2020.1.3,60.07604425537386,
2,0,2,0,32,0,32,0,,,space,blue,264.37437710002996,265.13247140002204,None,0,264.37437710002996,None,264.37437710002996,265.13247140002204,264.37437710002996,None,,,a,001,2020_Jul_30_2032,goNogoAlpha4,2020.1.3,60.07604425537386,
2,0,2,0,33,0,33,0,,,space,blue,265.37066210003104,266.13217230001464,None,0,265.37066210003104,None,265.37066210003104,266.13217230001464,265.37066210003104,None,,,a,001,2020_Jul_30_2032,goNogoAlpha4,2020.1.3,60.07604425537386,
2,0,2,0,34,0,34,0,,,space,blue,266.37488240003586,267.13203930004966,None,0,266.37488240003586,None,266.37488240003586,267.13203930004966,266.37488240003586,None,,,a,001,2020_Jul_30_2032,goNogoAlpha4,2020.1.3,60.07604425537386,
2,0,2,0,35,0,35,0,,,space,blue,267.36981910001487,268.13168200000655,None,0,267.36981910001487,None,267.36981910001487,268.13168200000655,267.36981910001487,None,,,a,001,2020_Jul_30_2032,goNogoAlpha4,2020.1.3,60.07604425537386,
2,0,2,0,36,0,36,0,,,space,blue,268.3729155000183,269.1314508000505,None,0,268.3729155000183,None,268.3729155000183,269.1314508000505,268.3729155000183,None,,,a,001,2020_Jul_30_2032,goNogoAlpha4,2020.1.3,60.07604425537386,
2,0,2,0,37,0,37,0,,,space,blue,269.37369690003106,270.13117360003525,None,0,269.37369690003106,None,269.37369690003106,270.13117360003525,269.37369690003106,None,,,a,001,2020_Jul_30_2032,goNogoAlpha4,2020.1.3,60.07604425537386,
2,0,2,0,38,0,38,0,,,space,blue,270.37288070004433,271.13094830000773,None,0,270.37288070004433,None,270.37288070004433,271.13094830000773,270.37288070004433,None,,,a,001,2020_Jul_30_2032,goNogoAlpha4,2020.1.3,60.07604425537386,
2,0,2,0,39,0,39,0,,,space,blue,271.36884680000367,272.1306684000301,None,0,271.36884680000367,None,271.36884680000367,272.1306684000301,271.36884680000367,None,,,a,001,2020_Jul_30_2032,goNogoAlpha4,2020.1.3,60.07604425537386,
2,0,2,0,40,0,40,0,,,space,blue,272.3723858000012,273.13051640003687,None,0,272.3723858000012,None,272.3723858000012,273.13051640003687,272.3723858000012,None,,,a,001,2020_Jul_30_2032,goNogoAlpha4,2020.1.3,60.07604425537386,
2,0,2,0,41,0,41,0,,,space,blue,273.37222170003224,274.13032830000157,None,0,273.37222170003224,None,273.37222170003224,274.13032830000157,273.37222170003224,None,,,a,001,2020_Jul_30_2032,goNogoAlpha4,2020.1.3,60.07604425537386,
2,0,2,0,42,0,42,0,,,space,blue,274.3713434000383,275.1299345000298,None,0,274.3713434000383,None,274.3713434000383,275.1299345000298,274.3713434000383,None,,,a,001,2020_Jul_30_2032,goNogoAlpha4,2020.1.3,60.07604425537386,
2,0,2,0,43,0,43,0,,,space,blue,275.36764040001435,276.12972140003694,None,0,275.36764040001435,None,275.36764040001435,276.12972140003694,275.36764040001435,None,,,a,001,2020_Jul_30_2032,goNogoAlpha4,2020.1.3,60.07604425537386,
2,0,2,0,44,0,44,0,,,space,blue,276.3714914000011,277.1294559999951,None,0,276.3714914000011,None,276.3714914000011,277.1294559999951,276.3714914000011,None,,,a,001,2020_Jul_30_2032,goNogoAlpha4,2020.1.3,60.07604425537386,
2,0,2,0,45,0,45,0,,,space,blue,277.371055399999,278.1291841000202,None,0,277.371055399999,None,277.371055399999,278.1291841000202,277.371055399999,None,,,a,001,2020_Jul_30_2032,goNogoAlpha4,2020.1.3,60.07604425537386,
2,0,2,0,46,0,46,0,,,,orange,278.3746398999938,279.12906990002375,None,0,278.3746398999938,None,278.3746398999938,279.12906990002375,278.3746398999938,None,,,a,001,2020_Jul_30_2032,goNogoAlpha4,2020.1.3,60.07604425537386,
2,0,2,0,47,0,47,0,,,space,blue,279.3733498000074,280.12867920001736,None,0,279.3733498000074,None,279.3733498000074,280.12867920001736,279.3733498000074,None,,,a,001,2020_Jul_30_2032,goNogoAlpha4,2020.1.3,60.07604425537386,
2,0,2,0,48,0,48,0,,,space,blue,280.36892940005055,281.1284852999961,None,0,280.36892940005055,None,280.36892940005055,281.1284852999961,280.36892940005055,None,,,a,001,2020_Jul_30_2032,goNogoAlpha4,2020.1.3,60.07604425537386,
2,0,2,0,49,0,49,0,,,,orange,281.3749728000257,282.12824300001375,None,0,281.3749728000257,None,281.3749728000257,282.12824300001375,281.3749728000257,None,,,a,001,2020_Jul_30_2032,goNogoAlpha4,2020.1.3,60.07604425537386,
2,0,2,0,50,0,50,0,,,space,blue,282.38669690000825,283.14463640004396,None,0,282.38669690000825,None,282.38669690000825,283.14463640004396,282.38669690000825,None,,,a,001,2020_Jul_30_2032,goNogoAlpha4,2020.1.3,60.07604425537386,
2,0,2,0,51,0,51,0,,,space,blue,283.3833969000261,284.1443815000239,None,0,283.3833969000261,None,283.3833969000261,284.1443815000239,283.3833969000261,None,,,a,001,2020_Jul_30_2032,goNogoAlpha4,2020.1.3,60.07604425537386,
2,0,2,0,52,0,52,0,,,,orange,284.3862942000269,285.1441483999952,None,0,284.3862942000269,None,284.3862942000269,285.1441483999952,284.3862942000269,None,,,a,001,2020_Jul_30_2032,goNogoAlpha4,2020.1.3,60.07604425537386,
2,0,2,0,53,0,53,0,,,space,blue,285.38727669999935,286.14388790004887,None,0,285.38727669999935,None,285.38727669999935,286.14388790004887,285.38727669999935,None,,,a,001,2020_Jul_30_2032,goNogoAlpha4,2020.1.3,60.07604425537386,
2,0,2,0,54,0,54,0,,,,orange,286.3868584000156,287.14394020003965,None,0,286.3868584000156,None,286.3868584000156,287.14394020003965,286.3868584000156,None,,,a,001,2020_Jul_30_2032,goNogoAlpha4,2020.1.3,60.07604425537386,
2,0,2,0,55,0,55,0,,,,orange,287.38570050004637,288.14339870004915,None,0,287.38570050004637,None,287.38570050004637,288.14339870004915,287.38570050004637,None,,,a,001,2020_Jul_30_2032,goNogoAlpha4,2020.1.3,60.07604425537386,
2,0,2,0,56,0,56,0,,,space,blue,288.38784360000864,289.1431179000065,None,0,288.38784360000864,None,288.38784360000864,289.1431179000065,288.38784360000864,None,,,a,001,2020_Jul_30_2032,goNogoAlpha4,2020.1.3,60.07604425537386,
2,0,2,0,57,0,57,0,,,space,blue,289.3849149000016,290.14291739999317,None,0,289.3849149000016,None,289.3849149000016,290.14291739999317,289.3849149000016,None,,,a,001,2020_Jul_30_2032,goNogoAlpha4,2020.1.3,60.07604425537386,
2,0,2,0,58,0,58,0,,,,orange,290.389919200039,291.1429238000419,None,0,290.389919200039,None,290.389919200039,291.1429238000419,290.389919200039,None,,,a,001,2020_Jul_30_2032,goNogoAlpha4,2020.1.3,60.07604425537386,
2,0,2,0,59,0,59,0,,,space,blue,291.38699860003544,292.14241170004243,None,0,291.38699860003544,None,291.38699860003544,292.14241170004243,291.38699860003544,None,,,a,001,2020_Jul_30_2032,goNogoAlpha4,2020.1.3,60.07604425537386,
2,0,2,0,60,0,60,0,,,space,blue,292.3831625000457,293.1423360000481,None,0,292.3831625000457,None,292.3831625000457,293.1423360000481,292.3831625000457,None,,,a,001,2020_Jul_30_2032,goNogoAlpha4,2020.1.3,60.07604425537386,
2,0,2,0,61,0,61,0,,,space,blue,293.38608500000555,294.1419235000503,None,0,293.38608500000555,None,293.38608500000555,294.1419235000503,293.38608500000555,None,,,a,001,2020_Jul_30_2032,goNogoAlpha4,2020.1.3,60.07604425537386,
2,0,2,0,62,0,62,0,,,space,blue,294.3833405000041,295.14180080004735,None,0,294.3833405000041,None,294.3833405000041,295.14180080004735,294.3833405000041,None,,,a,001,2020_Jul_30_2032,goNogoAlpha4,2020.1.3,60.07604425537386,
2,0,2,0,63,0,63,0,,,space,blue,295.3906206000247,296.14143290003994,None,0,295.3906206000247,None,295.3906206000247,296.14143290003994,295.3906206000247,None,,,a,001,2020_Jul_30_2032,goNogoAlpha4,2020.1.3,60.07604425537386,
2,0,2,0,64,0,64,0,,,space,blue,296.3843077000347,297.1411590000498,None,0,296.3843077000347,None,296.3843077000347,297.1411590000498,296.3843077000347,None,,,a,001,2020_Jul_30_2032,goNogoAlpha4,2020.1.3,60.07604425537386,
2,0,2,0,65,0,65,0,,,space,blue,297.3818777000415,298.1409221000504,None,0,297.3818777000415,None,297.3818777000415,298.1409221000504,297.3818777000415,None,,,a,001,2020_Jul_30_2032,goNogoAlpha4,2020.1.3,60.07604425537386,
2,0,2,0,66,0,66,0,,,space,blue,298.3817080000299,299.1406907000346,None,0,298.3817080000299,None,298.3817080000299,299.1406907000346,298.3817080000299,None,,,a,001,2020_Jul_30_2032,goNogoAlpha4,2020.1.3,60.07604425537386,
2,0,2,0,67,0,67,0,,,space,blue,299.38240360002965,300.1404278000118,None,0,299.38240360002965,None,299.38240360002965,300.1404278000118,299.38240360002965,None,,,a,001,2020_Jul_30_2032,goNogoAlpha4,2020.1.3,60.07604425537386,
2,0,2,0,68,0,68,0,,,space,blue,300.38228740001796,301.1401570000453,None,0,300.38228740001796,None,300.38228740001796,301.1401570000453,300.38228740001796,None,,,a,001,2020_Jul_30_2032,goNogoAlpha4,2020.1.3,60.07604425537386,
2,0,2,0,69,0,69,0,,,space,blue,301.3779860000359,302.1399239000166,None,0,301.3779860000359,None,301.3779860000359,302.1399239000166,301.3779860000359,None,,,a,001,2020_Jul_30_2032,goNogoAlpha4,2020.1.3,60.07604425537386,
2,0,2,0,70,0,70,0,,,space,blue,302.3815623000264,303.1396970000351,None,0,302.3815623000264,None,302.3815623000264,303.1396970000351,302.3815623000264,None,,,a,001,2020_Jul_30_2032,goNogoAlpha4,2020.1.3,60.07604425537386,
2,0,2,0,71,0,71,0,,,space,blue,303.3814249000279,304.1397222999949,None,0,303.3814249000279,None,303.3814249000279,304.1397222999949,303.3814249000279,None,,,a,001,2020_Jul_30_2032,goNogoAlpha4,2020.1.3,60.07604425537386,
2,0,2,0,72,0,72,0,,,space,blue,304.3811805000296,305.1391733000055,None,0,304.3811805000296,None,304.3811805000296,305.1391733000055,304.3811805000296,None,,,a,001,2020_Jul_30_2032,goNogoAlpha4,2020.1.3,60.07604425537386,
2,0,2,0,73,0,73,0,,,space,blue,305.3887754000025,306.1390530000208,None,0,305.3887754000025,None,305.3887754000025,306.1390530000208,305.3887754000025,None,,,a,001,2020_Jul_30_2032,goNogoAlpha4,2020.1.3,60.07604425537386,
2,0,2,0,74,0,74,0,,,space,blue,306.38069730001735,307.13888620003127,None,0,306.38069730001735,None,306.38069730001735,307.13888620003127,306.38069730001735,None,,,a,001,2020_Jul_30_2032,goNogoAlpha4,2020.1.3,60.07604425537386,
2,0,2,0,75,0,75,0,,,,orange,307.3839266000432,308.1384432000341,None,0,307.3839266000432,None,307.3839266000432,308.1384432000341,307.3839266000432,None,,,a,001,2020_Jul_30_2032,goNogoAlpha4,2020.1.3,60.07604425537386,
2,0,2,0,76,0,76,0,,,space,blue,308.3840288000065,309.1381438000244,None,0,308.3840288000065,None,308.3840288000065,309.1381438000244,308.3840288000065,None,,,a,001,2020_Jul_30_2032,goNogoAlpha4,2020.1.3,60.07604425537386,
2,0,2,0,77,0,77,0,,,space,blue,309.3764303000062,310.13794290000806,None,0,309.3764303000062,None,309.3764303000062,310.13794290000806,309.3764303000062,None,,,a,001,2020_Jul_30_2032,goNogoAlpha4,2020.1.3,60.07604425537386,
2,0,2,0,78,0,78,0,,,space,blue,310.37673590000486,311.13768860005075,None,0,310.37673590000486,None,310.37673590000486,311.13768860005075,310.37673590000486,None,,,a,001,2020_Jul_30_2032,goNogoAlpha4,2020.1.3,60.07604425537386,
2,0,2,0,79,0,79,0,,,space,blue,311.37745990004623,312.1374765000073,None,0,311.37745990004623,None,311.37745990004623,312.1374765000073,311.37745990004623,None,,,a,001,2020_Jul_30_2032,goNogoAlpha4,2020.1.3,60.07604425537386,
2,0,2,0,80,0,80,0,,,space,blue,312.38045820000116,313.1371943000122,None,0,312.38045820000116,None,312.38045820000116,313.1371943000122,312.38045820000116,None,,,a,001,2020_Jul_30_2032,goNogoAlpha4,2020.1.3,60.07604425537386,
2,0,2,0,81,0,81,0,,,space,blue,313.3788368999958,314.1369612000417,None,0,313.3788368999958,None,313.3788368999958,314.1369612000417,313.3788368999958,None,,,a,001,2020_Jul_30_2032,goNogoAlpha4,2020.1.3,60.07604425537386,
2,0,2,0,82,0,82,0,,,,orange,314.3822987000458,315.1368768000393,None,0,314.3822987000458,None,314.3822987000458,315.1368768000393,314.3822987000458,None,,,a,001,2020_Jul_30_2032,goNogoAlpha4,2020.1.3,60.07604425537386,
2,0,2,0,83,0,83,0,,,,orange,315.37867300002836,316.1365269999951,None,0,315.37867300002836,None,315.37867300002836,316.1365269999951,315.37867300002836,None,,,a,001,2020_Jul_30_2032,goNogoAlpha4,2020.1.3,60.07604425537386,
2,0,2,0,84,0,84,0,,,space,blue,316.3824981000507,317.1366147000226,None,0,316.3824981000507,None,316.3824981000507,317.1366147000226,316.3824981000507,None,,,a,001,2020_Jul_30_2032,goNogoAlpha4,2020.1.3,60.07604425537386,
2,0,2,0,85,0,85,0,,,space,blue,317.38142950000474,318.13651860004757,None,0,317.38142950000474,None,317.38142950000474,318.13651860004757,317.38142950000474,None,,,a,001,2020_Jul_30_2032,goNogoAlpha4,2020.1.3,60.07604425537386,
2,0,2,0,86,0,86,0,,,,orange,318.37918869999703,319.13587960001314,None,0,318.37918869999703,None,318.37918869999703,319.13587960001314,318.37918869999703,None,,,a,001,2020_Jul_30_2032,goNogoAlpha4,2020.1.3,60.07604425537386,
2,0,2,0,87,0,87,0,,,space,blue,319.3791464000242,320.13549200003035,None,0,319.3791464000242,None,319.3791464000242,320.13549200003035,319.3791464000242,None,,,a,001,2020_Jul_30_2032,goNogoAlpha4,2020.1.3,60.07604425537386,
2,0,2,0,88,0,88,0,,,space,blue,320.37758710002527,321.1352564000408,None,0,320.37758710002527,None,320.37758710002527,321.1352564000408,320.37758710002527,None,,,a,001,2020_Jul_30_2032,goNogoAlpha4,2020.1.3,60.07604425537386,
2,0,2,0,89,0,89,0,,,space,blue,321.3739370999974,322.13536370004294,None,0,321.3739370999974,None,321.3739370999974,322.13536370004294,321.3739370999974,None,,,a,001,2020_Jul_30_2032,goNogoAlpha4,2020.1.3,60.07604425537386,
2,0,2,0,90,0,90,0,,,space,blue,322.3762395000085,323.134749400022,None,0,322.3762395000085,None,322.3762395000085,323.134749400022,322.3762395000085,None,,,a,001,2020_Jul_30_2032,goNogoAlpha4,2020.1.3,60.07604425537386,
2,0,2,0,91,0,91,0,,,space,blue,323.37650150002446,324.13448810001137,None,0,323.37650150002446,None,323.37650150002446,324.13448810001137,323.37650150002446,None,,,a,001,2020_Jul_30_2032,goNogoAlpha4,2020.1.3,60.07604425537386,
2,0,2,0,92,0,92,0,,,space,blue,324.37321960000554,325.13420850003604,None,0,324.37321960000554,None,324.37321960000554,325.13420850003604,324.37321960000554,None,,,a,001,2020_Jul_30_2032,goNogoAlpha4,2020.1.3,60.07604425537386,
2,0,2,0,93,0,93,0,,,space,blue,325.37600839999504,326.1340809999965,None,0,325.37600839999504,None,325.37600839999504,326.1340809999965,325.37600839999504,None,,,a,001,2020_Jul_30_2032,goNogoAlpha4,2020.1.3,60.07604425537386,
2,0,2,0,94,0,94,0,,,space,blue,326.3757337999996,327.1337751999963,None,0,326.3757337999996,None,326.3757337999996,327.1337751999963,326.3757337999996,None,,,a,001,2020_Jul_30_2032,goNogoAlpha4,2020.1.3,60.07604425537386,
2,0,2,0,95,0,95,0,,,space,blue,327.37131560000125,328.1335168000078,None,0,327.37131560000125,None,327.37131560000125,328.1335168000078,327.37131560000125,None,,,a,001,2020_Jul_30_2032,goNogoAlpha4,2020.1.3,60.07604425537386,
2,0,2,0,96,0,96,0,,,space,blue,328.373759100039,329.1332565000048,None,0,328.373759100039,None,328.373759100039,329.1332565000048,328.373759100039,None,,,a,001,2020_Jul_30_2032,goNogoAlpha4,2020.1.3,60.07604425537386,
2,0,2,0,97,0,97,0,,,space,blue,329.3749844999984,330.1333960000193,None,0,329.3749844999984,None,329.3749844999984,330.1333960000193,329.3749844999984,None,,,a,001,2020_Jul_30_2032,goNogoAlpha4,2020.1.3,60.07604425537386,
2,0,2,0,98,0,98,0,,,,orange,330.37546070001554,331.13305740000214,None,0,330.37546070001554,None,330.37546070001554,331.13305740000214,330.37546070001554,None,,,a,001,2020_Jul_30_2032,goNogoAlpha4,2020.1.3,60.07604425537386,
2,0,2,0,99,0,99,0,,,space,blue,331.37719309999375,332.1324844000046,None,0,331.37719309999375,None,331.37719309999375,332.1324844000046,331.37719309999375,None,,,a,001,2020_Jul_30_2032,goNogoAlpha4,2020.1.3,60.07604425537386,
2,0,2,0,,,,,,,,,,,,,,,,,,,,,a,001,2020_Jul_30_2032,goNogoAlpha4,2020.1.3,60.07604425537386,
,,,,,,,,,,,,,,,,,,,,,,332.36775760003366,None,,,,,,,
